"","timestamp","acc.x","acc.y","acc.z","label","gyro.x","gyro.y","gyro.z"
"1",1534858007055,0.863571166992188,0.768035888671875,0.62353515625,"walk",0.77739061411198,0.67932230491063,-0.089968799332933
"2",1534858007155,0.6402587890625,0.446990966796875,0.146102905273438,"walk",1.91611790314165,0.905616200785892,-0.192453640535843
"3",1534858007254,0.161346435546875,0.968292236328125,0.0973052978515625,"walk",1.61686926366431,1.00884205297456,-0.279496191073133
"4",1534858007354,0.26385498046875,0.864181518554688,-0.0226593017578125,"walk",1.49715122661799,0.476914311722333,-0.290803896971293
"5",1534858007453,0.33203125,0.900115966796875,-0.016571044921875,"walk",1.31152414299467,-0.138295482472517,-0.158743689864047
"6",1534858007553,0.222381591796875,0.97698974609375,0.076019287109375,"walk",1.05224348055913,0.327592782529557,0.146342604157776
"7",1534858007652,0.1390380859375,1.02813720703125,0.111572265625,"walk",0.582350239774319,0.248565999031958,0.406759159148458
"8",1534858007752,0.524154663085938,1.17117309570312,0.178421020507812,"walk",-0.448863681632384,0.725186561368543,0.230396938488875
"9",1534858007851,0.294906616210938,0.937347412109375,-0.028045654296875,"walk",-2.95645473830849,0.954199498519085,-0.193359310967285
"10",1534858007951,0.106430053710938,1.35365295410156,-0.145172119140625,"walk",-3.0082477864879,0.515699698494536,-0.440069336730499
"11",1534858008050,0.308807373046875,0.919052124023438,0.139999389648438,"walk",-2.98045128175119,-2.12374017008351,-0.267358165897314
"12",1534858008150,0.461380004882812,0.343826293945312,0.122451782226562,"walk",-0.347239680076731,-1.33459309112463,-0.504356327977859
"13",1534858008249,0.381683349609375,0.1673583984375,0.494598388671875,"walk",1.68604728069414,-0.0897772365252168,-0.471821130273032
"14",1534858008349,0.745956420898438,1.5174560546875,1.03749084472656,"walk",0.783109861253378,-0.000559111648282734,0.0732021240922387
"15",1534858008448,0.733810424804688,1.7344970703125,0.15545654296875,"walk",2.52111293100963,0.734016473058539,0.162732232855853
"16",1534858008548,0.0618896484375,1.14802551269531,-0.385589599609375,"walk",2.03748024745281,1.08111722913809,-0.405099671249063
"17",1534858008647,0.390151977539062,0.741500854492188,0.0670013427734375,"walk",1.3999373464547,0.133174848723897,-0.469532768343712
"18",1534858008747,0.0830535888671875,0.9884033203125,-0.048583984375,"walk",1.31727126364964,0.411439993583142,0.102948674186929
"19",1534858008846,0.406784057617188,0.9580078125,0.1932373046875,"walk",1.14504172006457,0.49096733451269,0.37755823912841
"20",1534858008946,0.171646118164062,1.16461181640625,0.0530548095703125,"walk",-0.495600365205805,0.55471371492881,0.174769805225862
"21",1534858009045,0.461074829101562,1.37113952636719,0.0848388671875,"walk",-2.64426362508539,0.609040432066559,-0.205658579677064
"22",1534858009145,0.489059448242188,1.19929504394531,0.078369140625,"walk",-3.78642679954797,-0.091762161140946,-0.0767590420441485
"23",1534858009244,0.146575927734375,0.757308959960938,-0.0091400146484375,"walk",-2.75929013972501,-1.61541725932279,-0.282304494442622
"24",1534858009344,0.417800903320312,0.181198120117188,0.176345825195312,"walk",0.259323446933703,-1.2415309649653,-0.72015433098056
"25",1534858009443,0.399261474609375,0.230712890625,0.531005859375,"walk",1.12775042382922,-0.302278311318669,-0.468331622906839
"26",1534858009543,0.894515991210938,0.57061767578125,0.7235107421875,"walk",0.608356806767268,0.322575357143223,0.47838240101333
"27",1534858009642,-0.167343139648438,1.13055419921875,-0.004852294921875,"walk",2.01839661024117,0.843146458271016,0.447911873293813
"28",1534858009742,0.45672607421875,1.08277893066406,0.146575927734375,"walk",2.79364760812324,1.34616459671632,-0.370513607367774
"29",1534858009841,0.112960815429688,0.73529052734375,-0.135833740234375,"walk",2.03483789882937,1.02505310041648,-0.343825015689699
"30",1534858009941,0.160720825195312,0.967987060546875,0.167831420898438,"walk",1.26072414682308,0.277201856053939,0.484229857621124
"31",1534858010040,0.163711547851562,1.30091857910156,0.0891571044921875,"walk",0.721954736577905,0.524964629396061,0.499999331214218
"32",1534858010140,0.355270385742188,1.36314392089844,0.324081420898438,"walk",-1.95956966990585,0.879473154939611,0.155486790596491
"33",1534858010239,0.606582641601562,1.40953063964844,-0.22589111328125,"walk",-3.61357895148313,0.671404705249736,-0.0785529690945165
"34",1534858010339,0.155303955078125,0.919815063476562,0.0627593994140625,"walk",-3.49350851300432,-0.873356240779722,-0.292313363089593
"35",1534858010438,0.243011474609375,0.395370483398438,-0.0721435546875,"walk",-1.4121920724365,-1.68669876598709,-0.580480543073427
"36",1534858010538,0.385025024414062,0.121078491210938,0.194793701171875,"walk",1.9837746410315,-0.563480194469655,-1.02501707708647
"37",1534858010637,1.22186279296875,2.28211975097656,0.918563842773438,"walk",0.634461090032135,-0.350720958818658,-0.482188840854314
"38",1534858010737,0.582565307617188,1.3297119140625,-0.152053833007812,"walk",-0.523118322315069,0.0619840091071578,-0.546033244621126
"39",1534858010836,0.199081420898438,0.88690185546875,0.233016967773438,"walk",1.62357177162026,1.03607495673429,-0.553570767714287
"40",1534858010936,0.492782592773438,0.596817016601562,0.111541748046875,"walk",2.47746054669001,1.41476651221711,-0.296935885166449
"41",1534858011035,0.336380004882812,0.772415161132812,0.0783843994140625,"walk",1.70502612699938,0.327566504195126,0.117678354577559
"42",1534858011135,0.470809936523438,0.952239990234375,0.145248413085938,"walk",1.03982173361432,0.559450054532131,0.656925261453651
"43",1534858011234,0.2525634765625,1.28753662109375,0.0966644287109375,"walk",-0.105453646225769,0.522537391768427,0.185529726062905
"44",1534858011334,0.219833374023438,1.39942932128906,0.064117431640625,"walk",-3.16234639621365,-0.0288505023708199,-0.14877723341619
"45",1534858011433,0.673751831054688,1.17803955078125,0.209808349609375,"walk",-3.66554962707222,0.0391176840559724,-0.155315804784462
"46",1534858011533,0.0487518310546875,0.878662109375,0.0197601318359375,"walk",-2.93879259960885,-1.86179839827894,-0.482598804611506
"47",1534858011632,0.471954345703125,0.200531005859375,0.011871337890625,"walk",-0.121049965432803,-1.37426400069937,-0.952765712373433
"48",1534858011732,0.402328491210938,0.355743408203125,0.627960205078125,"walk",1.20445500694659,0.472671162377782,-0.48661052797484
"49",1534858011831,0.764236450195312,0.22821044921875,0.736740112304688,"walk",0.364794427631863,-0.0637994118930394,0.258052435457538
"50",1534858011931,0.002105712890625,1.20701599121094,0.21246337890625,"walk",1.97543083233076,0.577158271353643,-0.129451956050826
"51",1534858012030,0.423019409179688,1.35598754882812,0.187042236328125,"walk",2.46719756627735,0.879584472355662,-0.86102149495971
"52",1534858012130,0.2152099609375,0.559722900390625,-0.145980834960938,"walk",2.16415797405601,1.39310739537055,0.0986690123603297
"53",1534858012229,0.31524658203125,0.961380004882812,0.138671875,"walk",1.65692396736227,0.601765445024166,0.320437586103501
"54",1534858012329,0.263946533203125,1.28933715820312,0.113204956054688,"walk",0.448289482361273,0.285604569529972,0.577397586270211
"55",1534858012428,0.302581787109375,1.52824401855469,0.142715454101562,"walk",-1.9959152559956,0.586742773433444,-0.19730889571686
"56",1534858012528,0.98114013671875,1.16055297851562,-0.156982421875,"walk",-3.54042275061462,0.533995908674602,0.0983643874942945
"57",1534858012627,-0.032562255859375,0.917190551757812,0.090606689453125,"walk",-3.98070716206074,-0.959077806348598,0.104904268703021
"58",1534858012727,0.214523315429688,0.307342529296875,-0.0306854248046875,"walk",-1.25761128924285,-1.87135372515725,-0.707156159122869
"59",1534858012826,0.3017578125,0.098724365234375,0.183135986328125,"walk",3.07640141316941,-0.369560744634811,-1.04747173721838
"60",1534858012926,0.839004516601562,1.82565307617188,1.16993713378906,"walk",-1.89164287932894,-1.40789267876022,-0.191785428960741
"61",1534858013025,0.356842041015625,1.50332641601562,-0.138916015625,"walk",0.298960072385679,0.99527736153274,-0.226888808017628
"62",1534858013125,0.1436767578125,1.56349182128906,-0.0314483642578125,"walk",1.9116721470234,1.01623955901466,-0.398314606868198
"63",1534858013224,0.366531372070312,0.635513305664062,0.10516357421875,"walk",2.55093447626412,1.78833353704009,-0.426903554209836
"64",1534858013324,0.23974609375,0.828887939453125,0.000579833984375,"walk",1.3305465727464,-0.0772456450554872,0.451003042416227
"65",1534858013423,0.530105590820312,1.03337097167969,0.18988037109375,"walk",1.09268991351335,0.771113690168273,0.78376003127085
"66",1534858013523,0.435028076171875,1.49423217773438,0.2706298828125,"walk",-0.873631978500466,-0.0365569568374539,-0.134696160474025
"67",1534858013622,0.94085693359375,0.781646728515625,-0.0906982421875,"walk",-3.929765686815,0.131934690694564,-0.0295795400017179
"68",1534858013722,0.100296020507812,1.31935119628906,0.1077880859375,"walk",-3.47034680534309,-0.526380278871185,-0.333524859722233
"69",1534858013821,0.296066284179688,0.391555786132812,0.0679931640625,"walk",-2.16293539560738,-2.19921606850432,-0.72289728363791
"70",1534858013921,0.407211303710938,0.032928466796875,0.0357666015625,"walk",0.903469942958329,-0.624267253977413,-0.944987635178547
"71",1534858014020,0.967453002929688,2.3092041015625,1.64268493652344,"walk",0.629249819128581,1.16980589523389,-0.0973308364153256
"72",1534858014120,0.839157104492188,0.997512817382812,-0.060577392578125,"walk",1.20514129540697,0.664238437682575,0.626039457242317
"73",1534858014219,0.106582641601562,0.942977905273438,0.381942749023438,"walk",2.20872873317248,0.145911074230775,-0.0555945421497949
"74",1534858014319,0.534774780273438,0.58306884765625,0.136550903320312,"walk",2.52115242188408,0.234753421642877,-0.510592516426932
"75",1534858014418,0.128433227539062,0.77862548828125,-0.0357666015625,"walk",1.65318216624546,0.843381267553822,0.179129693421543
"76",1534858014518,0.434951782226562,0.876861572265625,0.203643798828125,"walk",1.14481506331571,0.500038843828759,0.577677772556979
"77",1534858014617,0.3431396484375,1.24075317382812,0.192794799804688,"walk",-0.657822306504175,0.446961885687823,-0.0168299008589821
"78",1534858014717,0.797531127929688,0.88690185546875,0.0512847900390625,"walk",-3.17672842809908,0.733812276540713,-0.359317411828972
"79",1534858014816,0.17291259765625,1.18806457519531,0.01763916015625,"walk",-3.18611611170429,0.221576029913872,-0.249382888368692
"80",1534858014916,0.262557983398438,0.5892333984375,0.0104217529296875,"walk",-2.70449014353391,-2.00404746024266,-0.663556478217723
"81",1534858015015,0.390899658203125,0.170257568359375,-0.040069580078125,"walk",0.655508796725132,-1.32645957975462,-1.06413677753584
"82",1534858015115,0.512924194335938,0.910903930664062,1.07710266113281,"walk",2.0097501468701,-0.218431711705131,-1.03430939506704
"83",1534858015215,0.944808959960938,0.36749267578125,0.530685424804688,"walk",-0.786278539233556,-0.0805133437130141,-0.407500371230054
"84",1534858015314,0.102859497070312,-0.0355987548828125,-0.15283203125,"walk",0.827875449626156,0.520880258802704,-0.559412699621576
"85",1534858015414,0.60223388671875,0.858428955078125,0.163101196289062,"walk",2.03954908708102,0.903484637018281,-0.47477850818882
"86",1534858015513,0.127105712890625,0.894851684570312,-0.1002197265625,"walk",2.25366635631666,1.12790474314434,-0.0348036919089134
"87",1534858015613,0.223846435546875,1.01873779296875,0.187850952148438,"walk",1.29777438087967,0.23068583439941,0.655311532578675
"88",1534858015712,-0.0223388671875,1.29423522949219,0.134811401367188,"walk",0.478079493614447,0.665834671219697,0.651848205716502
"89",1534858015812,0.34381103515625,1.37591552734375,0.126495361328125,"walk",-1.83548386388103,0.81189420852871,-0.239899176066105
"90",1534858015911,1.04899597167969,1.3204345703125,0.0438385009765625,"walk",-3.74465622387718,0.446518597089357,-0.488578373031947
"91",1534858016011,-0.069488525390625,0.946121215820312,0.124984741210938,"walk",-3.32821411808397,-1.11065583736802,-0.241616545387667
"92",1534858016110,0.347259521484375,0.380462646484375,-0.132476806640625,"walk",-1.29720139633611,-1.96990925696252,-0.725628654262028
"93",1534858016210,0.347793579101562,0.106338500976562,0.120269775390625,"walk",0.905440035397295,-0.665552468539535,-0.89642886026747
"94",1534858016309,1.09141540527344,2.01463317871094,1.1134033203125,"walk",0.311320275851706,0.343894154612611,-0.0249455473095951
"95",1534858016409,0.743209838867188,1.65484619140625,-0.0016937255859375,"walk",0.623828253611803,0.402933291819075,0.255025694634271
"96",1534858016508,0.202499389648438,1.31510925292969,-0.356353759765625,"walk",2.08750676557841,0.406513420035138,-0.65916529516172
"97",1534858016608,0.331497192382812,0.618179321289062,0.0644073486328125,"walk",2.29446568800793,0.77418351595681,-0.50056030164024
"98",1534858016707,0.240447998046875,0.780502319335938,0.037811279296875,"walk",1.98510028381431,0.231219969401185,0.208298587570728
"99",1534858016807,0.43585205078125,1.03329467773438,0.173385620117188,"walk",0.97444879766981,0.227248549448182,0.502941789964863
"100",1534858016906,0.306610107421875,1.20294189453125,0.1517333984375,"walk",-0.478391963935655,0.716578205658663,0.0504510704360718
"101",1534858017006,0.416610717773438,1.22723388671875,0.077545166015625,"walk",-2.86923881598423,0.334885468723155,-0.135284034262082
"102",1534858017105,0.533859252929688,1.27458190917969,0.2830810546875,"walk",-3.72580718221748,-0.381839490699129,-0.240557501335038
"103",1534858017205,0.1236572265625,0.776046752929688,0.012054443359375,"walk",-2.60001757324359,-1.61273842906247,-0.457460626512246
"104",1534858017304,0.378494262695312,0.259063720703125,-0.0504150390625,"walk",0.058319771198343,-1.53258309029028,-0.990612264206086
"105",1534858017404,0.522262573242188,0.586288452148438,0.623123168945312,"walk",0.00733799797728829,0.163374655248562,-0.0863648738702707
"106",1534858017503,0.759780883789062,0.202224731445312,0.461410522460938,"walk",0.567608827887335,0.206006790707103,0.543223715654034
"107",1534858017603,-0.129669189453125,0.972015380859375,-0.100555419921875,"walk",1.63865278546143,0.334752922108697,0.0813921787202067
"108",1534858017702,0.319015502929688,1.21551513671875,0.196990966796875,"walk",2.30815014017347,0.357044338618317,-0.701163546648108
"109",1534858017802,0.15771484375,0.725326538085938,-0.01409912109375,"walk",2.15389143098602,1.00282553727026,-0.222629125334227
"110",1534858017901,0.20697021484375,1.00599670410156,0.264602661132812,"walk",1.57424347902971,0.692916986807339,0.315211849887208
"111",1534858018001,-0.076629638671875,1.36331176757812,0.0475006103515625,"walk",0.514275676367045,0.465851418266134,0.288553827493932
"112",1534858018100,0.242935180664062,1.39152526855469,0.09033203125,"walk",-2.0384541590759,0.270740630492755,-0.34041185952145
"113",1534858018200,1.13615417480469,1.03727722167969,0.017059326171875,"walk",-3.31101986961276,1.0533242674198,-0.00290961762638681
"114",1534858018300,-0.09100341796875,1.03941345214844,0.056793212890625,"walk",-3.62451173593252,-1.23107370966862,-0.239988158256649
"115",1534858018399,0.378250122070312,0.368408203125,0.0612640380859375,"walk",-1.28111502016085,-1.7746240701829,-0.637660293816933
"116",1534858018498,0.372894287109375,0.12518310546875,0.186492919921875,"walk",2.39198669043016,-0.52725742630385,-1.14962508552087
"117",1534858018598,1.10842895507812,2.41850280761719,1.13871765136719,"walk",-0.763050323200364,-0.702137730974859,-0.131701147772032
"118",1534858018698,0.64813232421875,1.51156616210938,0.0887451171875,"walk",0.289364164910883,0.379566844137751,-0.289579533117731
"119",1534858018797,0.189788818359375,1.38265991210938,-0.381759643554688,"walk",1.78608181531586,0.191460936369471,-0.11829806944571
"120",1534858018897,0.512359619140625,0.544845581054688,0.161575317382812,"walk",2.56062545043729,1.36299488889693,-0.453565780593119
"121",1534858018996,0.111862182617188,0.8267822265625,-0.0814056396484375,"walk",1.49440250196661,0.34400288224038,0.0669010795180888
"122",1534858019096,0.51092529296875,0.9013671875,0.27435302734375,"walk",1.22198416033578,0.274409812479171,0.817694576016367
"123",1534858019195,0.433013916015625,1.27471923828125,0.106369018554688,"walk",0.0544510188228731,0.386642656623231,0.198834884303963
"124",1534858019295,0.359283447265625,1.21365356445312,0.188095092773438,"walk",-3.90180476992614,0.889012972980834,-0.187131008736053
"125",1534858019394,0.238067626953125,1.50914001464844,0.285873413085938,"walk",-3.48587970598853,0.309198888687711,-0.191727168235628
"126",1534858019494,0.186752319335938,0.792770385742188,-0.0249176025390625,"walk",-3.38910757902981,-2.40763199821369,-0.743533040072941
"127",1534858019593,0.384185791015625,0.222702026367188,-0.0693359375,"walk",0.147786820111858,-1.44993904921949,-0.965592985379458
"128",1534858019693,0.455276489257812,0.91888427734375,0.941619873046875,"walk",2.23657579992474,0.0761269597819973,-0.985974314817491
"129",1534858019792,0.674224853515625,0.474014282226562,0.462753295898438,"walk",-0.221119792373981,0.148167402136698,0.40241969576783
"130",1534858019892,-0.063232421875,-0.0067291259765625,-0.541748046875,"walk",2.16994255560448,0.35152481768863,-0.398400050859008
"131",1534858019991,0.554641723632812,1.0819091796875,0.241195678710938,"walk",2.21058571735543,0.0489173831394092,-0.996078375168368
"132",1534858020091,0.0818328857421875,0.857620239257812,-0.088775634765625,"walk",2.12613459647951,1.15380230804089,0.421801415843236
"133",1534858020190,0.298782348632812,0.856246948242188,0.286468505859375,"walk",1.64678326680631,-0.0412070154564792,0.362244356307512
"134",1534858020290,-0.146484375,1.21574401855469,-0.04315185546875,"walk",-0.0425256715176974,0.494211439736968,0.186789406693535
"135",1534858020389,0.327117919921875,1.53160095214844,0.15643310546875,"walk",-2.5922696332492,0.575659297546536,-0.316833312799393
"136",1534858020489,0.721527099609375,1.40188598632812,0.225479125976562,"walk",-3.67091199703999,0.460519451814971,-0.0121111815990365
"137",1534858020588,0.0094757080078125,0.860504150390625,0.008880615234375,"walk",-3.17060438318951,-1.46544606828716,-0.303620172209019
"138",1534858020688,0.358367919921875,0.22998046875,-0.061248779296875,"walk",-0.211436595718192,-1.67525556769221,-0.768404323233282
"139",1534858020787,0.47052001953125,0.361648559570312,0.524398803710938,"walk",1.86542735473834,-1.00388620367715,-1.22857171330468
"140",1534858020887,1.02423095703125,0.368408203125,0.70526123046875,"walk",-1.32421877970836,-0.652076938644003,-0.0851797508801189
"141",1534858020986,-0.247589111328125,0.260147094726562,-0.464981079101562,"walk",0.771663834029212,1.1596605504511,-0.302732184623712
"142",1534858021086,0.290176391601562,1.35064697265625,0.29461669921875,"walk",2.70420166612012,0.701674732266815,-0.289017682218041
"143",1534858021185,0.1474609375,0.802947998046875,-0.0205841064453125,"walk",2.37132326157739,0.937274283668191,-0.239571275715644
"144",1534858021285,0.396347045898438,0.848281860351562,0.211013793945312,"walk",1.14163506961841,0.00451053615301822,0.567537792141524
"145",1534858021384,0.108062744140625,1.22061157226562,0.153854370117188,"walk",0.623302162443527,0.387337850368195,0.573119315809407
"146",1534858021484,0.332351684570312,1.45123291015625,0.1751708984375,"walk",-1.31538078070469,0.401170746589389,-0.157047112221566
"147",1534858021583,1.05500793457031,1.10499572753906,-0.124664306640625,"walk",-3.47919511730221,0.948257746986122,-0.243353964507721
"148",1534858021683,0.018890380859375,1.22653198242188,0.0539703369140625,"walk",-3.12980017628292,0.0645420133793371,-0.254851439656129
"149",1534858021782,0.302459716796875,0.410186767578125,-0.005279541015625,"walk",-1.94824915909437,-1.86333313453497,-0.633304628633837
"150",1534858021882,0.366790771484375,0.105911254882812,0.104446411132812,"walk",1.31628804359776,-1.15563050834397,-0.925610850103691
"151",1534858021981,1.16470336914062,2.23320007324219,1.38543701171875,"walk",1.44726885521013,-0.369957751298048,-0.395553120783669
"152",1534858022081,0.738540649414062,1.11286926269531,-0.0666656494140625,"walk",0.39603081035789,0.248477419033087,0.0648567229298684
"153",1534858022180,0.27130126953125,1.09671020507812,-0.0194091796875,"walk",2.19752563515493,0.589357674240056,-0.719904515600263
"154",1534858022280,0.509506225585938,0.6397705078125,0.16705322265625,"walk",2.32714048718271,0.780184185432387,-0.539895435292606
"155",1534858022379,0.0783233642578125,0.819549560546875,-0.100509643554688,"walk",2.16837933167732,0.662878228155816,0.0827874468604572
"156",1534858022479,0.327682495117188,0.99285888671875,0.190780639648438,"walk",1.03437003633207,0.207946009500003,0.496480871482458
"157",1534858022578,0.136917114257812,1.25617980957031,-0.00543212890625,"walk",-0.31606826270853,0.826867690447093,0.216582651785175
"158",1534858022678,0.26153564453125,1.37893676757812,0.134613037109375,"walk",-2.53528860595573,0.64701657386136,-0.109700453340552
"159",1534858022777,0.643966674804688,1.41548156738281,0.148895263671875,"walk",-3.62125545897505,0.0152601494696385,-0.208940034376875
"160",1534858022877,0.116531372070312,1.00350952148438,0.0252685546875,"walk",-2.78705141736253,-1.38138329608343,-0.557352404829484
"161",1534858022976,0.288467407226562,0.19696044921875,-0.0110015869140625,"walk",-0.477049649220912,-1.72076562372514,-0.869291998792688
"162",1534858023076,0.470367431640625,0.26568603515625,0.164413452148438,"walk",0.185240506768522,-0.20264139480024,-0.420405403104884
"163",1534858023175,0.814712524414062,0.560958862304688,0.890655517578125,"walk",-0.213921202727225,0.484663537099576,0.678275989681008
"164",1534858023275,-0.230148315429688,0.516937255859375,-0.174560546875,"walk",0.96613300107572,0.8964835230076,0.715026357233873
"165",1534858023374,0.209259033203125,1.34169006347656,0.197921752929688,"walk",2.38527673105818,0.949529270531068,-0.446725130666915
"166",1534858023474,0.254608154296875,0.65777587890625,0.153732299804688,"walk",2.393413318651,1.13798520190944,-0.264012713806001
"167",1534858023573,0.300323486328125,0.828079223632812,0.155990600585938,"walk",1.93915715974297,0.37595496723698,0.357255163146244
"168",1534858023673,0.292205810546875,1.14720153808594,-0.0128936767578125,"walk",0.878702976904891,0.220401942737173,0.305317084105391
"169",1534858023772,0.37774658203125,1.40611267089844,0.215164184570312,"walk",-1.25973957345056,0.443460872378714,-0.0673998624151468
"170",1534858023872,0.858535766601562,1.03450012207031,-0.216766357421875,"walk",-3.28202208899863,0.517156436740763,-0.0341761940883531
"171",1534858023971,0.0532989501953125,1.30894470214844,-0.134262084960938,"walk",-3.73260743090295,-0.678507450989869,-0.038104038747396
"172",1534858024071,0.262405395507812,0.5040283203125,0.0433502197265625,"walk",-2.02476266312103,-1.73645322413729,-0.42678729907572
"173",1534858024170,0.332962036132812,0.0808563232421875,-0.019195556640625,"walk",1.52646258629794,-1.06073477403403,-1.05397445374234
"174",1534858024270,0.975936889648438,1.75508117675781,1.566162109375,"walk",-0.619671659720195,-0.810338205029116,-0.351890458836253
"175",1534858024369,0.571731567382812,0.514617919921875,0.366012573242188,"walk",1.05261693183427,0.710839791909949,0.408168109958187
"176",1534858024469,0.18463134765625,0.370285034179688,-0.082763671875,"walk",2.68271261384925,1.03699640775395,0.0412152141881208
"177",1534858024568,0.5047607421875,0.840362548828125,0.1683349609375,"walk",2.79316228777724,1.15583853383525,-0.664313022498165
"178",1534858024668,0.0679931640625,0.914642333984375,-0.098785400390625,"walk",1.48266264111384,0.590199434240359,0.000734836800046712
"179",1534858024767,0.260650634765625,0.916732788085938,0.24664306640625,"walk",1.37944862640446,0.323921479091317,0.470664177005184
"180",1534858024867,0.095489501953125,1.15231323242188,0.107818603515625,"walk",0.36309822553824,0.260775008320873,0.18859102701844
"181",1534858024966,0.32891845703125,1.24639892578125,0.196823120117188,"walk",-2.46201090787378,1.05362385130234,0.146110164544838
"182",1534858025066,1.05442810058594,1.23335266113281,-0.0428466796875,"walk",-3.65089607504361,0.0170561608511859,0.0754029984622384
"183",1534858025165,0.015716552734375,0.879226684570312,0.08544921875,"walk",-3.21392463327603,-1.03599980667634,0.0392444940040414
"184",1534858025265,0.264389038085938,0.296234130859375,-0.107086181640625,"walk",-0.868377678522727,-1.59801290102913,-0.510356150010142
"185",1534858025364,0.44708251953125,0.272018432617188,0.175079345703125,"walk",3.07130598977327,-0.892190711143743,-1.04631082181903
"186",1534858025464,0.503326416015625,0.940826416015625,0.903335571289062,"walk",-0.682631249954917,-0.528387976231747,-0.208090200650451
"187",1534858025563,-0.16546630859375,1.05570983886719,0.0287322998046875,"walk",0.995676634600414,0.97813581375848,-0.896388763387999
"188",1534858025663,0.253036499023438,1.81465148925781,0.252166748046875,"walk",1.29122876843957,0.550640477979316,-0.289448263733592
"189",1534858025762,0.213943481445312,0.702102661132812,0.0024566650390625,"walk",2.54859722630621,1.41891518456324,-0.521966790482298
"190",1534858025862,0.272506713867188,0.812057495117188,0.1328125,"walk",NA,NA,NA
